File: examples/MRT RAT data - TOMCAT example - All data.csv
Source #1 zenith(°),Wavelength (nm),Spectral intensity (W m-2 nm-1),Photon flux in WL bin (A cm-2),Reflected front total,Reflected front,Escaped front,Absorbed cell,Absorbed parasitic,Absorbed edge,Reflected rear total,Reflected rear,Escaped rear,Remainder,Absorbed Top interface #1,Absorbed Top layer #1 (Glass),Absorbed Top interface #2,Absorbed Top layer #2 (EVA),Absorbed Solar cell top (interface #3),Absorbed Solar cell bulk (layer #3),Absorbed Solar cell bottom (interface #4),Absorbed Bottom layer #4 (EVA),Absorbed Bottom interface #5,"   ",Cell EQE
0,300,0.00310151,3.75227e-07,0.080185,0.07,0.010185,0,0.919815,0,0,0,0,0,3.39228e-18,0.68594,0,0.233875,0,0,0,0,0," ",0
0,370,0.66905,0.000199659,0.0420825,0.0303347,0.0117478,0.268967,0.688742,0,0,0,0,0.000208161,1.1371e-16,0.0109447,0,0.62573,0.0520673,0.268967,0,0,0," ",0
0,440,1.343,0.000476604,0.0400878,0.0297506,0.0103373,0.926722,0.0331849,0,0,0,0,4.84782e-06,2.03032e-18,0.00501377,0,0.00515843,0.0230127,0.926722,0,0,0," ",0
0,510,1.5525,0.000638603,0.0236954,0.0220269,0.0016685,0.970263,0.00604159,0,0,0,0,5.1679e-15,5.55112e-16,0.00290931,0,0.00289526,0.000237015,0.970263,0,0,0," ",0
0,580,1.499,0.000701227,0.0203643,0.0197468,0.000617552,0.973598,0.00603731,0,0,0,0,0,-4.44303e-16,0.00386076,0,0.00217655,3.22842e-16,0.973598,0,0,0," ",0
0,650,1.397,0.000732384,0.018425,0.0179502,0.000474832,0.973392,0.00798891,0,0,0,0,0.000194494,8.88196e-16,0.00633983,0,0.00164908,-1.67895e-17,0.973392,0,0,0," ",0
0,720,1.0964,0.000636694,0.0227353,0.0216575,0.00107786,0.966458,0.0108066,0,0,0,0,2.15394e-11,3.33245e-16,0.00970068,0,0.00110591,-2.42793e-16,0.966458,0,0,0," ",0
0,790,1.1125,0.000708853,0.0240835,0.0215493,0.00253421,0.960852,0.0149055,0,0,0,0,0.000158858,-8.89387e-16,0.0144095,0,0.000496038,-2.18275e-16,0.960852,0,0,0," ",0
0,860,0.9807,0.000680242,0.0290895,0.0234401,0.00564941,0.952115,0.0185587,0,0,0,0,0.000236379,-6.69953e-16,0.0181925,0,0.000365467,3.17991e-16,0.952115,7.27681e-07,0,0," ",0
0,930,0.46335,0.000347553,0.028045,0.022803,0.00524201,0.941007,0.0305105,0,0,0,0,0.000437613,5.69778e-19,0.0201713,0,0.00633543,2.02233e-16,0.941007,0.00400379,0,0," ",0
0,1000,0.7327,0.000590956,0.0473546,0.0257077,0.0216469,0.864441,0.0881725,0,0,0,0,3.16079e-05,6.70837e-16,0.0216268,0,0.00120767,2.86167e-17,0.864441,0.065338,0,0," ",0
0,1070,0.61,0.000526432,0.161614,0.0273373,0.134277,0.540358,0.297994,0,0,0,0,3.41299e-05,1.11472e-15,0.0301555,0,0.00242495,-2.72182e-17,0.540358,0.265414,0,0," ",0
0,1140,0.20927,0.000192416,0.289122,0.0376883,0.251434,0.154037,0.556831,0,0,0,0,1.00789e-05,-9.21365e-16,0.0439712,0,0.0102407,-3.08898e-16,0.154037,0.502619,0,0," ",0
0,1210,0.43835,0.000427795,0.284749,0.028293,0.256456,0.00160532,0.713634,0,0,0,0,1.24512e-05,4.49507e-17,0.0405574,0,0.163657,1.08082e-16,0.00160532,0.509419,0,0," ",0
0,1280,0.4132,0.000426579,0.353453,0.0272247,0.326228,2.05154e-05,0.646524,0,0,0,0,2.97058e-06,1.05772e-16,0.0492272,0,0.0158776,-6.82862e-17,2.05154e-05,0.581419,0,0," ",0
0,1350,0.02157,2.34862e-05,0.379405,0.0158333,0.363572,4.00843e-07,0.620592,0,0,0,0,2.57152e-06,3.67208e-16,0.0404215,0,0.0247806,3.18124e-16,4.00843e-07,0.55539,0,0," ",0
0,1420,0.01654,1.89432e-05,0.326428,0.0116667,0.314761,1.23202e-08,0.673568,0,0,0,0,3.93729e-06,1.30009e-18,0.0379351,0,0.100972,5.12348e-16,1.23202e-08,0.534661,0,0," ",0
0,1490,0.15389,0.000184938,0.366496,0.0257559,0.34074,3.01702e-09,0.633502,0,0,0,0,1.96594e-06,2.36462e-16,0.0326737,0,0.097124,-1.91579e-16,3.01702e-09,0.503704,0,0," ",0
0,1560,0.2663,0.000335062,0.368663,0.0279751,0.340688,3.00109e-09,0.631336,0,0,0,0,1.56695e-06,3.29215e-16,0.0295825,0,0.0967921,7.66757e-17,3.00109e-09,0.504961,0,0," ",0
0,1630,0.2371,0.000311708,0.38697,0.0379818,0.348988,2.9619e-09,0.613029,0,0,0,0,1.37647e-06,5.88715e-16,0.0260481,0,0.0926002,-1.89901e-16,2.9619e-09,0.494381,0,0," ",0
0,1700,0.2008,0.000275323,0.39382,0.0360754,0.357745,2.76043e-09,0.605779,0,0,0,0,0.000400864,5.29517e-16,0.0281657,0,0.0903688,-1.12774e-16,2.76043e-09,0.487244,0,0," ",0
0,1770,0.1325,0.000189155,0.400135,0.0340641,0.366071,2.5929e-09,0.599864,0,0,0,0,1.08337e-06,3.82911e-16,0.0280192,0,0.0910227,7.08783e-17,2.5929e-09,0.480822,0,0," ",0
0,1840,0,0,0.341,0.03,0.311,2.66751e-09,0.658999,0,0,0,0,9.54561e-07,1.60351e-16,0.032243,0,0.103118,-6.67729e-17,2.66751e-09,0.523638,0,0," ",0
0,1910,0,0,0.4342,0.0533333,0.380867,2.49708e-09,0.565799,0,0,0,0,9.68508e-07,3.71162e-16,0.0253352,0,0.0815701,1.62404e-16,2.49708e-09,0.458894,0,0," ",0
0,1980,0.075275,0.000120211,0.380489,0.0204299,0.360059,2.47945e-09,0.619509,0,0,0,0,1.42408e-06,9.86044e-17,0.024841,0,0.0822594,-1.24715e-16,2.47945e-09,0.512409,0,0," ",0
0,2050,0.070225,0.000116111,0.398767,0.0340298,0.364737,2.3527e-09,0.601232,0,0,0,0,1.27014e-06,5.46842e-16,0.0243769,0,0.0788952,3.94423e-16,2.3527e-09,0.49796,0,0," ",0
0,2120,0.0886,0.000151495,0.406223,0.0347098,0.371513,2.28525e-09,0.593776,0,0,0,0,6.27314e-07,6.87277e-16,0.0233404,0,0.0767834,4.77334e-17,2.28525e-09,0.493652,0,0," ",0
0,2190,0.077675,0.0001372,0.40338,0.0279674,0.375413,2.18975e-09,0.596619,0,0,0,0,8.20648e-07,5.15028e-16,0.022818,0,0.0747204,1.60903e-16,2.18975e-09,0.499081,0,0," ",0
0,2260,0.0672,0.000122492,0.41794,0.0420786,0.375861,2.11365e-09,0.58206,0,0,0,0,8.91261e-07,5.28663e-16,0.0222867,0,0.072166,6.12044e-17,2.11365e-09,0.487607,0,0," ",0
0,2330,0.056825,0.000106788,0.404645,0.0395858,0.365059,2.12521e-09,0.595355,0,0,0,0,2.19612e-07,7.11023e-16,0.0219221,0,0.0704822,3.32902e-16,2.12521e-09,0.502951,0,0," ",0
0,2400,0.0405,7.83963e-05,0.408265,0.0275397,0.380726,2.06544e-09,0.591733,0,0,0,0,1.54012e-06,6.15131e-16,0.02105,0,0.0700242,4.35904e-17,2.06544e-09,0.500659,0,0," ",0
0,2470,0.018475,3.68053e-05,0.440037,0.0462619,0.393775,1.79314e-09,0.559963,0,0,0,0,0,4.2268e-16,0.0206684,0,0.0667108,1.80653e-16,1.79314e-09,0.472584,0,0," ",0
11,330,0.400038,0.000106474,0.111842,0.0560765,0.0557653,0,0.888158,0,0,0,0,0,-6.78516e-16,0.199939,0,0.68822,0,0,0,0,0," ",0
11,400,0.974339,0.00031434,0.0662442,0.0340791,0.0321651,0.820567,0.112833,0,0,0,0,0.000356126,-4.43434e-16,0.00649876,0,0.0405811,0.0657532,0.820567,0,0,0," ",0
11,470,1.52054,0.000576401,0.0285665,0.0230639,0.00550264,0.95591,0.0151416,0,0,0,0,0.000381665,7.36752e-19,0.00406952,0,0.00374051,0.00733155,0.95591,0,0,0," ",0
11,540,1.5014,0.000653911,0.0212521,0.0199979,0.00125425,0.973363,0.005385,0,0,0,0,0,2.22203e-16,0.00273905,0,0.00264595,-7.93731e-17,0.973363,0,0,0," ",0
11,610,1.44005,0.000708493,0.023171,0.0226411,0.000529969,0.970134,0.00651719,0,0,0,0,0.000177382,5.55111e-16,0.00463837,0,0.00187882,1.32026e-16,0.970134,0,0,0," ",0
11,680,1.36446,0.000748341,0.0222141,0.022045,0.000169031,0.968336,0.00908888,0,0,0,0,0.000361348,2.22003e-16,0.0076403,0,0.00144858,-5.10262e-18,0.968336,0,0,0," ",0
11,750,1.21133,0.000732744,0.0215919,0.0184164,0.00317544,0.964931,0.0129541,0,0,0,0,0.000523064,2.22161e-16,0.011949,0,0.0010051,2.11508e-16,0.964931,0,0,0," ",0
11,820,0.857746,0.000567285,0.0241157,0.022046,0.0020697,0.959568,0.0163164,0,0,0,0,4.3701e-07,-4.65737e-20,0.0162093,0,0.0001071,-2.36053e-16,0.959568,0,0,0," ",0
11,890,0.884593,0.000634984,0.028337,0.0242101,0.00412694,0.950305,0.0213562,0,0,0,0,1.68839e-06,2.51075e-19,0.0193928,0,0.00165715,-1.64616e-16,0.950305,0.000306266,0,0," ",0
11,960,0.405608,0.000314056,0.0346224,0.0272314,0.00739102,0.927594,0.0377648,0,0,0,0,1.92022e-05,2.20841e-16,0.0208861,0,0.00103404,1.8081e-16,0.927594,0.0158447,0,0," ",0
11,1030,0.673494,0.0005595,0.0740321,0.0255501,0.0484819,0.776439,0.149491,0,0,0,0,3.83329e-05,-4.41414e-16,0.0235448,0,0.0028948,2.70521e-16,0.776439,0.123051,0,0," ",0
11,1100,0.488654,0.000433534,0.226239,0.0310158,0.195223,0.366087,0.407653,0,0,0,0,2.22429e-05,2.45858e-16,0.0360673,0,0.00193943,-7.79064e-17,0.366087,0.369646,0,0," ",0
11,1170,0.411449,0.000388267,0.303156,0.033511,0.269645,0.0390383,0.657755,0,0,0,0,5.06577e-05,1.07505e-16,0.0456432,0,0.0509256,2.65507e-16,0.0390383,0.561187,0,0," ",0
11,1240,0.452383,0.000452436,0.343441,0.0346253,0.308816,0.00035487,0.656201,0,0,0,0,3.2935e-06,-1.89809e-16,0.0469033,0,0.0446318,-1.19011e-16,0.00035487,0.564666,0,0," ",0
11,1310,0.325606,0.000344027,0.366199,0.0321366,0.334062,6.59095e-06,0.632964,0,0,0,0,0.000830416,3.8482e-16,0.0473589,0,0.0114318,-3.95684e-18,6.59095e-06,0.574173,0,0," ",0
11,1380,0.000181601,2.02128e-07,0.376223,0.035,0.341223,8.66559e-08,0.623775,0,0,0,0,1.85295e-06,2.88457e-16,0.0376344,0,0.0723055,1.56829e-16,8.66559e-08,0.513835,0,0," ",0
11,1450,0.0641297,7.49991e-05,0.359292,0.0332097,0.326082,2.97129e-09,0.640706,0,0,0,0,2.19753e-06,3.95512e-16,0.0343076,0,0.0949733,1.23033e-16,2.97129e-09,0.511425,0,0," ",0
11,1520,0.256843,0.000314876,0.370515,0.0322634,0.338252,2.93878e-09,0.629483,0,0,0,0,1.90647e-06,3.22514e-16,0.0322055,0,0.0986194,9.04881e-17,2.93878e-09,0.498658,0,0," ",0
11,1590,0.244916,0.000314082,0.392521,0.0305261,0.361995,2.82722e-09,0.607478,0,0,0,0,1.4958e-06,6.64117e-16,0.0285958,0,0.0971371,1.97334e-16,2.82722e-09,0.481745,0,0," ",0
11,1660,0.216891,0.000290387,0.388739,0.0368969,0.351842,2.75738e-09,0.61126,0,0,0,0,7.4142e-07,1.82761e-16,0.0280892,0,0.0966892,2.17622e-16,2.75738e-09,0.486482,0,0," ",0
11,1730,0.168594,0.000235244,0.390653,0.0352803,0.355373,2.75889e-09,0.608909,0,0,0,0,0.000437387,-3.74908e-17,0.028619,0,0.092463,3.37514e-16,2.75889e-09,0.487827,0,0," ",0
11,1800,0.0306758,4.45347e-05,0.371997,0.0242619,0.347735,2.92734e-09,0.628003,0,0,0,0,9.63055e-07,-3.74543e-17,0.0300799,0,0.0948761,3.0831e-16,2.92734e-09,0.503047,0,0," ",0
11,1870,0,0,0.395285,0.01,0.385285,2.56322e-09,0.604715,0,0,0,0,0,-2.00684e-17,0.0265027,0,0.0828178,7.86194e-17,2.56322e-09,0.495395,0,0," ",0
11,1940,0.00515354,8.06374e-06,0.385294,0.054,0.331294,2.51646e-09,0.614705,0,0,0,0,1.78989e-06,2.07536e-16,0.0250631,0,0.0790622,3.227e-16,2.51646e-09,0.510579,0,0," ",0
11,2010,0.0296451,4.80594e-05,0.44801,0.0485794,0.39943,2.09033e-09,0.55199,0,0,0,0,8.25317e-07,7.41704e-17,0.0234821,0,0.0774341,2.4017e-16,2.09033e-09,0.451073,0,0," ",0
11,2080,0.0822849,0.000138042,0.402627,0.035873,0.366754,2.28244e-09,0.596406,0,0,0,0,0.000967145,5.60012e-17,0.0241959,0,0.0811544,2.98597e-16,2.28244e-09,0.491056,0,0," ",0
11,2150,0.0840764,0.000145795,0.40844,0.0353773,0.373062,2.15071e-09,0.589947,0,0,0,0,0.00161314,-2.52073e-16,0.0237441,0,0.078433,2.00975e-16,2.15071e-09,0.48777,0,0," ",0
11,2220,0.0751681,0.000134591,0.41233,0.0413522,0.370977,2.20951e-09,0.587669,0,0,0,0,9.58679e-07,6.43184e-17,0.0222207,0,0.0717843,1.76733e-16,2.20951e-09,0.493664,0,0," ",0
11,2290,0.0613517,0.000113316,0.398758,0.0377163,0.361041,2.18311e-09,0.601241,0,0,0,0,1.01903e-06,-2.14e-17,0.0217633,0,0.0705017,3.19996e-16,2.18311e-09,0.508976,0,0," ",0
11,2360,0.0482961,9.1929e-05,0.407076,0.0470328,0.360043,2.10611e-09,0.592923,0,0,0,0,1.53698e-06,9.55339e-17,0.021756,0,0.0695828,1.44872e-16,2.10611e-09,0.501584,0,0," ",0
11,2430,0.0338171,6.62783e-05,0.378235,0.0408658,0.337369,2.07134e-09,0.620543,0,0,0,0,0.0012216,-3.04906e-17,0.0213584,0,0.0682799,2.84151e-16,2.07134e-09,0.530905,0,0," ",0
11,2500,0.00451549,4.55243e-06,0.345779,0.03,0.315779,2.28294e-09,0.654221,0,0,0,0,0,1.98265e-16,0.0214609,0,0.0696598,3.55456e-16,2.28294e-09,0.5631,0,0," ",0
22,360,0.497944,0.000144581,0.12101,0.0350556,0.0859548,0,0.87899,0,0,0,0,0,-4.22923e-16,0.0160815,0,0.862908,0,0,0,0,0," ",0
22,430,1.04206,0.000361402,0.0441196,0.0321312,0.0119884,0.912526,0.0431347,0,0,0,0,0.000219774,2.16836e-16,0.00517932,0,0.00685644,0.031099,0.912526,0,0,0," ",0
22,500,1.42601,0.000575071,0.0252171,0.0237382,0.00147891,0.967011,0.00777223,0,0,0,0,0,2.22385e-16,0.00308512,0,0.00371064,0.000976467,0.967011,0,0,0," ",0
22,570,1.38104,0.000634907,0.0234889,0.0220959,0.00139296,0.970477,0.00582692,0,0,0,0,0.000207118,-2.22633e-16,0.00354454,0,0.00228238,1.42506e-16,0.970477,0,0,0," ",0
22,640,1.33746,0.000690384,0.0212605,0.0205602,0.00070028,0.970712,0.00766346,0,0,0,0,0.000364408,-6.66077e-16,0.0058978,0,0.00176567,-8.87833e-17,0.970712,0,0,0," ",0
22,710,1.20812,0.000691827,0.0233754,0.0222235,0.00115193,0.965836,0.0107884,0,0,0,0,1.0212e-10,-2.2175e-16,0.00969853,0,0.00108985,1.83412e-16,0.965836,0,0,0," ",0
22,780,1.07971,0.000679249,0.0211261,0.0189832,0.00214293,0.963722,0.0149728,0,0,0,0,0.00017909,2.21249e-16,0.0144287,0,0.000544089,2.52048e-16,0.963722,0,0,0," ",0
22,850,0.888428,0.000609074,0.0282663,0.0236623,0.00460409,0.95174,0.0195806,0,0,0,0,0.000413106,1.11077e-16,0.0183907,0,0.00118983,1.08997e-16,0.95174,0,0,0," ",0
22,920,0.649353,0.000481835,0.0296879,0.0248152,0.00487272,0.942166,0.028122,0,0,0,0,2.36535e-05,-4.43891e-16,0.0207059,0,0.00535806,7.56316e-17,0.942166,0.00205806,0,0," ",0
22,990,0.686209,0.000547924,0.0437194,0.032185,0.0115344,0.887138,0.0691139,0,0,0,0,2.84017e-05,5.99093e-19,0.0220203,0,0.00108748,3.21546e-16,0.887138,0.0460061,0,0," ",0
22,1060,0.585331,0.000500422,0.144816,0.034104,0.110712,0.599945,0.254973,0,0,0,0,0.000266008,-2.30881e-16,0.0287673,0,0.00343342,-2.22162e-16,0.599945,0.222773,0,0," ",0
22,1130,0.119236,0.000108671,0.274131,0.0360304,0.238101,0.20112,0.524736,0,0,0,0,1.22249e-05,4.20752e-16,0.0458411,0,0.00594947,9.30395e-17,0.20112,0.472945,0,0," ",0
22,1200,0.394702,0.000382014,0.284686,0.0298232,0.254863,0.00290889,0.712399,0,0,0,0,6.11447e-06,9.85312e-16,0.0435964,0,0.132918,-6.66428e-17,0.00290889,0.535885,0,0," ",0
22,1270,0.35233,0.000360896,0.346749,0.0333625,0.313386,3.33268e-05,0.652854,0,0,0,0,0.000364333,1.18922e-17,0.0495004,0,0.0193715,-3.94033e-17,3.33268e-05,0.583982,0,0," ",0
22,1340,0.147367,0.00015927,0.395893,0.029092,0.366801,8.16021e-07,0.604104,0,0,0,0,1.43842e-06,1.38648e-16,0.047843,0,0.0142735,1.19142e-16,8.16021e-07,0.541988,0,0," ",0
22,1410,0.00309679,3.52177e-06,0.322129,0.0203333,0.301796,2.09948e-08,0.677869,0,0,0,0,1.89379e-06,4.54885e-16,0.0378436,0,0.0957191,4.69933e-17,2.09948e-08,0.544306,0,0," ",0
22,1480,0.092227,0.00011009,0.359529,0.0280308,0.331498,2.89527e-09,0.640469,0,0,0,0,2.05236e-06,8.46797e-18,0.0354504,0,0.104989,4.07349e-17,2.89527e-09,0.50003,0,0," ",0
22,1550,0.250479,0.000313135,0.387021,0.0399919,0.347029,2.82368e-09,0.612978,0,0,0,0,1.46299e-06,-2.11448e-16,0.0306986,0,0.099902,7.15682e-17,2.82368e-09,0.482377,0,0," ",0
22,1620,0.22016,0.000287662,0.375298,0.0276838,0.347615,2.90446e-09,0.624698,0,0,0,0,3.28861e-06,-7.17043e-16,0.0275686,0,0.101303,2.77541e-16,2.90446e-09,0.495827,0,0," ",0
22,1690,0.191185,0.000260598,0.387054,0.0310973,0.355956,2.87436e-09,0.612853,0,0,0,0,9.33922e-05,-2.15416e-16,0.0291522,0,0.0959894,1.18982e-16,2.87436e-09,0.487711,0,0," ",0
22,1760,0.140468,0.000199398,0.385718,0.0253939,0.360324,2.66712e-09,0.613717,0,0,0,0,0.000565475,-6.79439e-17,0.0287482,0,0.0937471,-7.15583e-17,2.66712e-09,0.491221,0,0," ",0
22,1830,0.000301335,4.44764e-07,0.337247,0.04,0.297247,2.85558e-09,0.66275,0,0,0,0,3.04886e-06,-2.26155e-17,0.0295487,0,0.0967897,-1.28959e-17,2.85558e-09,0.536411,0,0," ",0
22,1900,2.31796e-05,3.55213e-08,0.410557,0.02,0.390557,2.40765e-09,0.58944,0,0,0,0,3.01383e-06,-2.33471e-16,0.02837,0,0.0892505,4.13314e-18,2.40765e-09,0.471819,0,0," ",0
22,1970,0.0448757,7.13028e-05,0.381655,0.0383815,0.343274,2.47846e-09,0.618344,0,0,0,0,9.92919e-07,-2.49381e-16,0.026236,0,0.0917312,1.71929e-16,2.47846e-09,0.500377,0,0," ",0
22,2040,0.0848141,0.000139549,0.393285,0.0342915,0.358994,2.33452e-09,0.606713,0,0,0,0,1.61145e-06,-4.81641e-16,0.0246457,0,0.0811026,-7.68527e-17,2.33452e-09,0.500965,0,0," ",0
22,2110,0.0841651,0.000143233,0.395198,0.0321356,0.363062,2.30022e-09,0.604801,0,0,0,0,1.08427e-06,-2.55684e-16,0.024689,0,0.0804198,7.25349e-17,2.30022e-09,0.499692,0,0," ",0
22,2180,0.0736416,0.000129482,0.391955,0.0267769,0.365178,2.2418e-09,0.608044,0,0,0,0,1.6278e-06,-4.42321e-17,0.0231332,0,0.0738879,7.13085e-18,2.2418e-09,0.511022,0,0," ",0
22,2250,0.0652506,0.000118412,0.408432,0.0350786,0.373354,2.12801e-09,0.591567,0,0,0,0,6.76779e-07,-4.71289e-16,0.0231964,0,0.0749521,1.03137e-16,2.12801e-09,0.493419,0,0," ",0
22,2320,0.0505083,9.45105e-05,0.412625,0.0311936,0.381432,2.07566e-09,0.587374,0,0,0,0,8.2156e-07,-5.29349e-16,0.0226649,0,0.0729832,-9.10688e-17,2.07566e-09,0.491726,0,0," ",0
22,2390,0.0336568,6.48783e-05,0.401528,0.0388254,0.362702,2.03492e-09,0.598472,0,0,0,0,7.13136e-07,-4.73231e-16,0.0224204,0,0.0749509,-2.62531e-17,2.03492e-09,0.5011,0,0," ",0
22,2460,0.0267724,5.31193e-05,0.432414,0.0401071,0.392307,1.80642e-09,0.567585,0,0,0,0,9.45327e-07,-7.41627e-17,0.0228849,0,0.0757819,4.40163e-17,1.80642e-09,0.468918,0,0," ",0
33,320,0.172053,4.4406e-05,0.0804279,0.0432582,0.0371697,0,0.919572,0,0,0,0,0,2.34752e-16,0.428609,0,0.490963,0,0,0,0,0," ",0
33,390,0.563272,0.000177179,0.0647889,0.0347938,0.0299952,0.715353,0.219856,0,0,0,0,1.85136e-06,-2.15135e-16,0.0102057,0,0.133954,0.0756961,0.715353,0,0,0," ",0
33,460,1.30791,0.000485248,0.0265137,0.0235375,0.00297613,0.951815,0.0216673,0,0,0,0,4.02359e-06,4.44149e-16,0.00534093,0,0.00517992,0.0111465,0.951815,0,0,0," ",0
33,530,1.28065,0.000547439,0.0232237,0.0216828,0.00154088,0.970883,0.00589343,0,0,0,0,1.14182e-14,2.22014e-16,0.00307057,0,0.00282286,-1.30369e-16,0.970883,0,0,0," ",0
33,600,1.22614,0.000593361,0.0185702,0.0180796,0.000490634,0.974587,0.00667966,0,0,0,0,0.000162857,-6.65701e-16,0.00468681,0,0.00199285,-1.06744e-16,0.974587,0,0,0," ",0
33,670,1.18378,0.0006397,0.0236858,0.0219703,0.00171551,0.966692,0.00962236,0,0,0,0,7.64732e-13,4.32372e-19,0.00803686,0,0.0015855,1.13182e-16,0.966692,0,0,0," ",0
33,740,1.02066,0.000609176,0.0235096,0.0209177,0.00259189,0.963123,0.0133672,0,0,0,0,7.93386e-13,3.33356e-16,0.0123728,0,0.000994411,-2.50445e-16,0.963123,0,0,0," ",0
33,810,0.86404,0.000564479,0.0253808,0.0224247,0.00295616,0.955709,0.0184865,0,0,0,0,0.000423867,-4.4425e-16,0.0176283,0,0.000858226,-3.31802e-17,0.955709,0,0,0," ",0
33,880,0.784157,0.000556564,0.0311501,0.0263004,0.00484967,0.946027,0.0227861,0,0,0,0,3.71996e-05,-4.3374e-18,0.021697,0,0.000982651,1.60273e-16,0.946027,0.000106448,0,0," ",0
33,950,0.280661,0.000215048,0.035145,0.0294508,0.00569421,0.929787,0.0350472,0,0,0,0,2.12865e-05,8.86122e-19,0.023899,0,0.0019287,4.45689e-17,0.929787,0.00921949,0,0," ",0
33,1020,0.58514,0.000481381,0.0592774,0.0269466,0.0323308,0.812352,0.128327,0,0,0,0,4.29985e-05,2.1791e-16,0.0260491,0,0.0027846,4.31743e-16,0.812352,0.0994935,0,0," ",0
33,1090,0.470536,0.000413665,0.196315,0.0309237,0.165391,0.428319,0.375334,0,0,0,0,3.19392e-05,-1.8272e-16,0.038592,0,0.00210858,-4.95451e-17,0.428319,0.334634,0,0," ",0
33,1160,0.288587,0.00027,0.30122,0.0321295,0.26909,0.0698354,0.628938,0,0,0,0,7.33824e-06,-3.88901e-16,0.0487967,0,0.0406014,3.4179e-16,0.0698354,0.53954,0,0," ",0
33,1230,0.386585,0.000383512,0.315967,0.0286512,0.287316,0.000654083,0.683374,0,0,0,0,5.2157e-06,-4.05042e-16,0.0499802,0,0.0847653,2.0214e-16,0.000654083,0.548628,0,0," ",0
33,1300,0.310182,0.000325229,0.359405,0.0316992,0.327706,7.71149e-06,0.640584,0,0,0,0,2.65601e-06,1.18377e-17,0.0527409,0,0.0140796,2.46728e-16,7.71149e-06,0.573764,0,0," ",0
33,1370,2.93535e-05,3.24346e-08,0.419307,0.05,0.369307,1.21902e-07,0.580691,0,0,0,0,2.24265e-06,-2.04479e-16,0.0452688,0,0.0542902,-9.85799e-17,1.21902e-07,0.481132,0,0," ",0
33,1440,0.0319953,3.71602e-05,0.364998,0.0327738,0.332224,4.3882e-09,0.634999,0,0,0,0,3.2423e-06,2.20071e-17,0.0398422,0,0.110728,1.70181e-16,4.3882e-09,0.484429,0,0," ",0
33,1510,0.203336,0.000247639,0.367243,0.0319049,0.335338,2.87779e-09,0.632755,0,0,0,0,2.06946e-06,-3.73665e-16,0.0338464,0,0.105202,1.58056e-16,2.87779e-09,0.493707,0,0," ",0
33,1580,0.201994,0.000257409,0.382976,0.0425123,0.340463,2.84425e-09,0.617022,0,0,0,0,1.82639e-06,-1.56721e-16,0.0310685,0,0.104972,3.60441e-17,2.84425e-09,0.480982,0,0," ",0
33,1650,0.183753,0.000244538,0.396313,0.0357925,0.36052,2.79103e-09,0.603686,0,0,0,0,1.36365e-06,-3.81242e-16,0.027611,0,0.0979969,-2.72128e-16,2.79103e-09,0.478078,0,0," ",0
33,1720,0.154944,0.000214948,0.401039,0.0451078,0.355931,2.6685e-09,0.598428,0,0,0,0,0.000533333,4.89203e-17,0.0294547,0,0.0946805,3.53588e-16,2.6685e-09,0.474292,0,0," ",0
33,1790,0.063068,9.10524e-05,0.416207,0.039044,0.377163,2.44434e-09,0.58379,0,0,0,0,2.71339e-06,2.44583e-16,0.0281715,0,0.0908935,1.75646e-16,2.44434e-09,0.464725,0,0," ",0
33,1860,0,0,0.404764,0.02,0.384764,2.38667e-09,0.595235,0,0,0,0,1.10269e-06,-2.05161e-16,0.0305021,0,0.0965087,3.54276e-16,2.38667e-09,0.468224,0,0," ",0
33,1930,0.00119511,1.86034e-06,0.382061,0.0183333,0.363727,2.60273e-09,0.617937,0,0,0,0,2.66133e-06,5.01832e-17,0.0244637,0,0.0769849,5.03575e-16,2.60273e-09,0.516488,0,0," ",0
33,2000,0.0360628,5.81727e-05,0.370965,0.0479567,0.323008,2.52479e-09,0.629033,0,0,0,0,2.1622e-06,-1.72519e-16,0.0264483,0,0.0883307,4.77656e-16,2.52479e-09,0.514254,0,0," ",0
33,2070,0.0565893,9.44787e-05,0.391775,0.0465441,0.345231,2.29343e-09,0.608224,0,0,0,0,1.32708e-06,-1.97279e-16,0.0254479,0,0.0826849,2.11261e-16,2.29343e-09,0.500091,0,0," ",0
33,2140,0.0754804,0.00013028,0.397461,0.0386529,0.358808,2.226e-09,0.601895,0,0,0,0,0.00064476,3.85632e-17,0.0252245,0,0.0828832,4.07266e-16,2.226e-09,0.493787,0,0," ",0
33,2210,0.0645986,0.000115145,0.407941,0.0479953,0.359945,2.1183e-09,0.591179,0,0,0,0,0.000880138,-1.08339e-17,0.0239315,0,0.0768441,2.33005e-16,2.1183e-09,0.490404,0,0," ",0
33,2280,0.054283,9.98223e-05,0.388826,0.034778,0.354048,2.16951e-09,0.611173,0,0,0,0,9.44008e-07,1.63102e-17,0.023664,0,0.0780615,4.54792e-16,2.16951e-09,0.509447,0,0," ",0
33,2350,0.0380337,7.20884e-05,0.395845,0.0428326,0.353013,2.14325e-09,0.604152,0,0,0,0,2.42403e-06,-4.15107e-16,0.0226405,0,0.0743866,3.40682e-16,2.14325e-09,0.507125,0,0," ",0
33,2420,0.0237344,4.63257e-05,0.394895,0.0479484,0.346946,2.04821e-09,0.605104,0,0,0,0,1.01321e-06,1.74409e-16,0.0221951,0,0.0731116,2.75597e-17,2.04821e-09,0.509797,0,0," ",0
33,2490,0.00324985,6.52667e-06,0.400431,0.0383333,0.362098,1.94402e-09,0.599569,0,0,0,0,0,-1.69176e-16,0.0233337,0,0.0789241,2.9474e-16,1.94402e-09,0.497311,0,0," ",0
44,350,0.371395,0.000104842,0.136451,0.0438283,0.0926231,0,0.863549,0,0,0,0,0,2.11709e-17,0.0338154,0,0.829733,0,0,0,0,0," ",0
44,420,0.875796,0.000296675,0.0523415,0.0361863,0.0161552,0.887104,0.0598557,0,0,0,0,0.000698325,-2.30797e-16,0.00663989,0,0.013416,0.0397998,0.887104,0,0,0," ",0
44,490,1.08476,0.000428707,0.0337202,0.0310036,0.00271658,0.955937,0.0101592,0,0,0,0,0.000183848,2.26742e-16,0.00378137,0,0.00408638,0.00229146,0.955937,0,0,0," ",0
44,560,1.08548,0.000490276,0.0340433,0.0330225,0.00102078,0.959754,0.00603707,0,0,0,0,0.000165679,-2.23509e-16,0.00347318,0,0.0025639,5.10462e-16,0.959754,0,0,0," ",0
44,630,1.01139,0.000513912,0.0242256,0.0237001,0.000525485,0.967497,0.00809998,0,0,0,0,0.000177115,6.66488e-16,0.0060849,0,0.00201508,1.54584e-16,0.967497,0,0,0," ",0
44,700,0.92615,0.000522888,0.032452,0.0305892,0.00186275,0.955782,0.0113577,0,0,0,0,0.000407828,2.20545e-16,0.0101307,0,0.00122708,-5.90603e-17,0.955782,0,0,0," ",0
44,770,0.775448,0.000481585,0.0331157,0.0304657,0.00265001,0.950455,0.016429,0,0,0,0,7.95065e-10,-2.19903e-16,0.0155179,0,0.000911076,-3.89847e-16,0.950455,0,0,0," ",0
44,840,0.717613,0.000486182,0.0370501,0.0315349,0.00551521,0.9415,0.0212841,0,0,0,0,0.000165896,1.14301e-16,0.0204214,0,0.00086275,-9.21329e-17,0.9415,0,0,0," ",0
44,910,0.484511,0.00035561,0.0393154,0.0336231,0.00569234,0.932494,0.0279703,0,0,0,0,0.000220065,-2.19802e-16,0.023745,0,0.00338909,-1.08708e-16,0.932494,0.00083626,0,0," ",0
44,980,0.467499,0.000369518,0.0374472,0.0301821,0.00726509,0.907133,0.0551858,0,0,0,0,0.000233551,-8.59251e-19,0.0255787,0,0.000958521,9.1009e-17,0.907133,0.0286487,0,0," ",0
44,1050,0.46901,0.000397192,0.122293,0.0382385,0.0840546,0.665808,0.211845,0,0,0,0,5.29785e-05,-2.7439e-17,0.0311995,0,0.00410538,-2.68068e-16,0.665808,0.176541,0,0," ",0
44,1120,0.104398,9.43058e-05,0.257153,0.035094,0.222058,0.257045,0.48497,0,0,0,0,0.000832129,-4.53139e-16,0.047934,0,0.00411308,8.88073e-17,0.257045,0.432923,0,0," ",0
44,1190,0.316797,0.000304059,0.315788,0.043422,0.272366,0.00522977,0.678974,0,0,0,0,8.39336e-06,-6.72631e-16,0.0496708,0,0.0996536,1.43023e-17,0.00522977,0.529649,0,0," ",0
44,1260,0.299893,0.000304765,0.365944,0.0405576,0.325387,6.33305e-05,0.6336,0,0,0,0,0.000392234,-2.0031e-16,0.0539493,0,0.0250451,-7.16415e-17,6.33305e-05,0.554606,0,0," ",0
44,1330,0.152716,0.000163819,0.378124,0.0394759,0.338648,1.94829e-06,0.621871,0,0,0,0,3.29917e-06,1.82187e-16,0.0525735,0,0.0117084,1.76728e-16,1.94829e-06,0.557589,0,0," ",0
44,1400,0.000503538,5.68577e-07,0.359842,0.045,0.314842,3.09988e-08,0.640156,0,0,0,0,1.20642e-06,1.88067e-16,0.040386,0,0.10455,-3.92793e-17,3.09988e-08,0.49522,0,0," ",0
44,1470,0.0497603,5.8997e-05,0.372003,0.0336061,0.338397,2.8076e-09,0.627993,0,0,0,0,3.72932e-06,-9.25113e-18,0.0371353,0,0.106127,5.20468e-17,2.8076e-09,0.484731,0,0," ",0
44,1540,0.194509,0.000241596,0.371742,0.0458353,0.325906,2.91504e-09,0.628256,0,0,0,0,2.82043e-06,1.0091e-17,0.0339751,0,0.107363,2.40381e-16,2.91504e-09,0.486917,0,0," ",0
44,1610,0.166527,0.000216242,0.384593,0.0370934,0.3475,2.79914e-09,0.615404,0,0,0,0,2.2189e-06,2.94341e-16,0.0302626,0,0.1051,1.58927e-16,2.79914e-09,0.480042,0,0," ",0
44,1680,0.148544,0.000201276,0.388708,0.0405576,0.34815,2.77366e-09,0.61129,0,0,0,0,1.69785e-06,-3.59928e-17,0.0309067,0,0.101319,1.23059e-16,2.77366e-09,0.479064,0,0," ",0
44,1750,0.114555,0.000161689,0.406821,0.0533342,0.353487,2.59185e-09,0.592795,0,0,0,0,0.000383708,1.29979e-16,0.0299045,0,0.0952052,7.73484e-17,2.59185e-09,0.467686,0,0," ",0
44,1820,0.00118691,1.74228e-06,0.34691,0.045,0.30191,2.67337e-09,0.653087,0,0,0,0,3.19141e-06,1.97904e-16,0.030607,0,0.0942294,3.67163e-16,2.67337e-09,0.52825,0,0," ",0
44,1890,8.99175e-05,1.37068e-07,0.390403,0.07,0.320403,2.46321e-09,0.609594,0,0,0,0,2.69549e-06,2.02167e-16,0.0280767,0,0.092513,3.79375e-16,2.46321e-09,0.489005,0,0," ",0
44,1960,0.0147644,2.33401e-05,0.391414,0.0308968,0.360517,2.30706e-09,0.608583,0,0,0,0,2.56285e-06,2.1109e-16,0.0290122,0,0.0931568,1.52375e-16,2.30706e-09,0.486414,0,0," ",0
44,2030,0.060982,9.98452e-05,0.407482,0.0352394,0.372243,2.27995e-09,0.592516,0,0,0,0,1.81533e-06,4.75205e-16,0.0276886,0,0.08877,3.85479e-16,2.27995e-09,0.476057,0,0," ",0
44,2100,0.0636975,0.000107887,0.424125,0.0459003,0.378225,2.16962e-09,0.575873,0,0,0,0,1.94612e-06,1.15463e-16,0.0265395,0,0.0847133,2.3333e-16,2.16962e-09,0.46462,0,0," ",0
44,2170,0.0575292,0.000100688,0.394657,0.0382494,0.356408,2.17137e-09,0.604537,0,0,0,0,0.000805267,8.49502e-17,0.0263228,0,0.0844684,1.66544e-16,2.17137e-09,0.493746,0,0," ",0
44,2240,0.0522421,9.43838e-05,0.394415,0.0458694,0.348545,2.1465e-09,0.605584,0,0,0,0,1.42851e-06,-5.57815e-19,0.0264118,0,0.0847662,3.76144e-16,2.1465e-09,0.494406,0,0," ",0
44,2310,0.0439517,8.18873e-05,0.402373,0.0422096,0.360163,2.04165e-09,0.597626,0,0,0,0,1.44588e-06,2.72397e-16,0.0246945,0,0.0803318,1.4588e-16,2.04165e-09,0.492599,0,0," ",0
44,2380,0.0286837,5.50606e-05,0.401244,0.0356349,0.365609,2.0495e-09,0.598754,0,0,0,0,1.62282e-06,2.19594e-16,0.0232478,0,0.0748798,1.14246e-16,2.0495e-09,0.500626,0,0," ",0
44,2450,0.013074,2.58347e-05,0.375265,0.024881,0.350384,2.13249e-09,0.624734,0,0,0,0,1.32174e-06,-2.66331e-17,0.022213,0,0.0710028,1.61276e-16,2.13249e-09,0.531518,0,0," ",0
55,310,0.0372165,9.30521e-06,0.067439,0.0600238,0.0074152,0,0.932561,0,0,0,0,0,2.25766e-16,0.637152,0,0.295409,0,0,0,0,0," ",0
55,380,0.378847,0.000116112,0.0750519,0.0636678,0.0113841,0.474489,0.450457,0,0,0,0,1.70651e-06,-2.27329e-16,0.0129569,0,0.371284,0.0662165,0.474489,0,0,0," ",0
55,450,0.85807,0.000311433,0.0537469,0.0474127,0.00633422,0.91731,0.0283834,0,0,0,0,0.000559932,2.24146e-16,0.00666921,0,0.00610685,0.0156074,0.91731,0,0,0," ",0
55,520,0.851761,0.000357232,0.0549279,0.0534558,0.00147209,0.938307,0.00676553,0,0,0,0,4.10849e-09,5.76715e-18,0.00349999,0,0.00326453,1.00977e-06,0.938307,0,0,0," ",0
55,590,0.827097,0.000393584,0.0482103,0.0476644,0.000545929,0.944299,0.00749023,0,0,0,0,5.5835e-20,-8.31059e-20,0.00484116,0,0.00264907,9.66817e-17,0.944299,0,0,0," ",0
55,660,0.775189,0.000412649,0.0501396,0.0499272,0.000212441,0.939697,0.0100058,0,0,0,0,0.000157112,6.691e-16,0.00830573,0,0.00170009,-9.94772e-17,0.939697,0,0,0," ",0
55,730,0.638677,0.000376039,0.0466,0.0452045,0.00139556,0.939429,0.0139713,0,0,0,0,2.66374e-09,-2.24194e-16,0.0126117,0,0.0013596,1.4842e-17,0.939429,0,0,0," ",0
55,800,0.619463,0.0003997,0.0539652,0.053073,0.000892217,0.927731,0.0183038,0,0,0,0,1.40395e-08,2.31182e-16,0.0180049,0,0.000298828,-1.968e-16,0.927731,0,0,0," ",0
55,870,0.537843,0.000377401,0.0557275,0.0527029,0.00302456,0.920156,0.0240663,0,0,0,0,4.97774e-05,1.47945e-18,0.0231285,0,0.000935147,-3.9013e-17,0.920156,2.60412e-06,0,0," ",0
55,940,0.174281,0.000132132,0.0581326,0.0568099,0.00132279,0.907674,0.0341519,0,0,0,0,4.1229e-05,-4.50823e-16,0.0252789,0,0.00468843,1.13688e-16,0.907674,0.00418454,0,0," ",0
55,1010,0.410795,0.000334639,0.0775131,0.0600184,0.0174947,0.822107,0.100062,0,0,0,0,0.000318468,-2.05156e-16,0.0273089,0,0.0022642,2.04572e-16,0.822107,0.0704885,0,0," ",0
55,1080,0.341192,0.000297202,0.204898,0.0549288,0.149969,0.472466,0.322583,0,0,0,0,5.3586e-05,1.97535e-16,0.0386087,0,0.00275389,1.79545e-16,0.472466,0.281221,0,0," ",0
55,1150,0.108004,0.000100177,0.301537,0.0513429,0.250195,0.1065,0.591947,0,0,0,0,1.50824e-05,-4.44203e-16,0.0519646,0,0.0216372,4.02218e-17,0.1065,0.518345,0,0," ",0
55,1220,0.259658,0.0002555,0.307883,0.0588448,0.249038,0.0010173,0.69109,0,0,0,0,9.84783e-06,-2.20613e-16,0.0466561,0,0.150893,3.63287e-16,0.0010173,0.493541,0,0," ",0
55,1290,0.236629,0.000246199,0.383669,0.0625789,0.32109,1.21494e-05,0.616314,0,0,0,0,4.55365e-06,-4.14053e-16,0.0538583,0,0.0149235,-3.82937e-18,1.21494e-05,0.547532,0,0," ",0
55,1360,5.73576e-06,6.29157e-09,0.3722,0.03,0.3422,2.32358e-07,0.627794,0,0,0,0,6.4481e-06,1.67047e-17,0.0546603,0,0.0330226,2.26863e-16,2.32358e-07,0.540111,0,0," ",0
55,1430,0.0179874,2.07459e-05,0.374759,0.0497738,0.324986,5.69589e-09,0.625235,0,0,0,0,5.53964e-06,-6.53428e-16,0.0431185,0,0.120114,-2.06969e-16,5.69589e-09,0.462003,0,0," ",0
55,1500,0.119132,0.000144128,0.390586,0.0660022,0.324584,2.80811e-09,0.609411,0,0,0,0,2.82231e-06,2.34715e-17,0.0363345,0,0.107633,3.66615e-16,2.80811e-09,0.465443,0,0," ",0
55,1570,0.141903,0.000179688,0.392278,0.0615577,0.330721,2.79593e-09,0.607719,0,0,0,0,3.14402e-06,2.22976e-16,0.0330577,0,0.10802,-2.16701e-16,2.79593e-09,0.466641,0,0," ",0
55,1640,0.127191,0.000168239,0.412129,0.0653403,0.346788,2.62342e-09,0.587868,0,0,0,0,3.07932e-06,-2.05146e-16,0.030053,0,0.106545,-1.07315e-16,2.62342e-09,0.45127,0,0," ",0
55,1710,0.10898,0.000150304,0.405038,0.0538013,0.351236,2.67544e-09,0.594959,0,0,0,0,2.90484e-06,-4.79567e-16,0.0318419,0,0.101511,6.92679e-17,2.67544e-09,0.461606,0,0," ",0
55,1780,0.0561818,8.06575e-05,0.404125,0.0654012,0.338724,2.53968e-09,0.595872,0,0,0,0,2.89016e-06,-4.25603e-16,0.0311883,0,0.0995242,6.1991e-17,2.53968e-09,0.46516,0,0," ",0
55,1850,0,0,0.451598,0.03,0.421598,2.18313e-09,0.548401,0,0,0,0,1.58834e-06,-8.40092e-17,0.0290168,0,0.0884583,3.3788e-16,2.18313e-09,0.430926,0,0," ",0
55,1920,0.00024377,3.77494e-07,0.442226,0.105,0.337226,2.21189e-09,0.557768,0,0,0,0,5.5563e-06,-2.44791e-16,0.0271225,0,0.0851728,9.17689e-17,2.21189e-09,0.445473,0,0," ",0
55,1990,0.0479797,7.70086e-05,0.401235,0.0680034,0.333232,2.37257e-09,0.598763,0,0,0,0,2.22767e-06,-2.48166e-16,0.028522,0,0.090057,-5.06237e-17,2.37257e-09,0.480184,0,0," ",0
55,2060,0.0364795,6.06101e-05,0.401212,0.0667544,0.334458,2.34518e-09,0.598786,0,0,0,0,1.46264e-06,-2.24724e-16,0.0273211,0,0.0866246,2.55692e-16,2.34518e-09,0.484841,0,0," ",0
55,2130,0.0512204,8.79937e-05,0.440756,0.081982,0.358774,2.06899e-09,0.559241,0,0,0,0,2.31542e-06,-2.40356e-16,0.0255602,0,0.0809537,1.34506e-16,2.06899e-09,0.452727,0,0," ",0
55,2200,0.0422439,7.49576e-05,0.416676,0.0552088,0.361467,2.14906e-09,0.583322,0,0,0,0,2.14087e-06,-2.14172e-16,0.0246628,0,0.0789188,2.11162e-17,2.14906e-09,0.47974,0,0," ",0
55,2270,0.0374402,6.85477e-05,0.421908,0.0738871,0.348021,2.0275e-09,0.57809,0,0,0,0,1.78675e-06,-4.57972e-16,0.0249688,0,0.0793565,1.24963e-16,2.0275e-09,0.473765,0,0," ",0
55,2340,0.0287505,5.42614e-05,0.422153,0.0631891,0.358964,2.05486e-09,0.577846,0,0,0,0,1.35757e-06,-4.40018e-16,0.0248548,0,0.0792064,1.67956e-16,2.05486e-09,0.473785,0,0," ",0
55,2410,0.0183688,3.57048e-05,0.433402,0.0740476,0.359354,1.91035e-09,0.566598,0,0,0,0,4.4976e-07,-7.13497e-16,0.0232204,0,0.0734397,5.79023e-17,1.91035e-09,0.469938,0,0," ",0
55,2480,0.00544898,1.08992e-05,0.432329,0.0516667,0.380662,1.80676e-09,0.56767,0,0,0,0,8.39863e-07,-1.9511e-16,0.0224238,0,0.0710536,1.17416e-16,1.80676e-09,0.474193,0,0," ",0
66,340,0.184038,5.0468e-05,0.217504,0.13469,0.0828142,0,0.782496,0,0,0,0,0,-2.42559e-16,0.0914189,0,0.691077,0,0,0,0,0," ",0
66,410,0.472425,0.000156223,0.115448,0.101948,0.0135009,0.804145,0.0803998,0,0,0,0,7.0915e-06,2.54985e-16,0.00766894,0,0.0253329,0.047398,0.804145,0,0,0," ",0
66,480,0.648135,0.00025092,0.102379,0.100192,0.0021868,0.884647,0.0126999,0,0,0,0,0.000274479,1.05747e-16,0.00438736,0,0.00438402,0.00392858,0.884647,0,0,0," ",0
66,550,0.625154,0.000277319,0.0941101,0.0937046,0.000405535,0.899395,0.00630393,0,0,0,0,0.00019104,2.09812e-20,0.00338058,0,0.00292335,3.10132e-16,0.899395,0,0,0," ",0
66,620,0.585497,0.000292783,0.113441,0.112863,0.000578679,0.878832,0.00772704,0,0,0,0,9.66915e-14,1.09524e-16,0.00583349,0,0.00189355,6.2884e-18,0.878832,0,0,0," ",0
66,690,0.489914,0.000272645,0.109669,0.109101,0.000568605,0.879374,0.010957,0,0,0,0,2.28657e-09,3.31428e-16,0.00946566,0,0.00149135,3.77028e-16,0.879374,0,0,0," ",0
66,760,0.31876,0.000195392,0.11581,0.1154,0.000409887,0.868451,0.015521,0,0,0,0,0.000218442,-4.44844e-16,0.0144175,0,0.00110355,-1.27818e-16,0.868451,0,0,0," ",0
66,830,0.377513,0.000252719,0.110246,0.10865,0.00159545,0.86925,0.0202595,0,0,0,0,0.000244945,2.21874e-16,0.0197858,0,0.000473751,-1.98593e-16,0.86925,0,0,0," ",0
66,900,0.286058,0.000207647,0.111556,0.109432,0.00212408,0.862037,0.0264034,0,0,0,0,3.69264e-06,2.19706e-16,0.0236955,0,0.00242984,1.11009e-16,0.862037,0.000278111,0,0," ",0
66,970,0.247743,0.000193822,0.108605,0.105198,0.003407,0.848162,0.0431795,0,0,0,0,5.35497e-05,4.46772e-16,0.0260379,0,0.00105907,-9.15302e-18,0.848162,0.0160826,0,0," ",0
66,1040,0.272819,0.000228842,0.159569,0.109445,0.0501239,0.67838,0.161962,0,0,0,0,8.7966e-05,1.15133e-16,0.0300139,0,0.00453362,9.36605e-17,0.67838,0.127415,0,0," ",0
66,1110,0.157407,0.000140921,0.313836,0.110306,0.20353,0.281743,0.404376,0,0,0,0,4.54455e-05,-1.51514e-17,0.0438295,0,0.00259376,1.00028e-16,0.281743,0.357953,0,0," ",0
66,1180,0.174348,0.000165931,0.37329,0.120977,0.252313,0.0128523,0.613522,0,0,0,0,0.000336127,2.35132e-16,0.0502825,0,0.072825,1.59739e-16,0.0128523,0.490414,0,0," ",0
66,1250,0.184089,0.000185595,0.401942,0.128601,0.27334,0.000152142,0.597897,0,0,0,0,8.95677e-06,2.0593e-16,0.0513396,0,0.0326793,8.40261e-17,0.000152142,0.513878,0,0," ",0
66,1320,0.117466,0.000125059,0.422224,0.119782,0.302442,3.56777e-06,0.577766,0,0,0,0,6.05539e-06,-4.30881e-16,0.0514441,0,0.0106803,5.60909e-16,3.56777e-06,0.515642,0,0," ",0
66,1390,7.32126e-05,8.20786e-08,0.424742,0.19,0.234742,4.65554e-08,0.575248,0,0,0,0,9.34525e-06,-4.47728e-16,0.0354989,0,0.115457,7.10066e-17,4.65554e-08,0.424292,0,0," ",0
66,1460,0.0440557,5.18781e-05,0.416734,0.130625,0.286109,2.65719e-09,0.58326,0,0,0,0,5.74226e-06,9.7676e-17,0.0368072,0,0.101051,2.75741e-16,2.65719e-09,0.445402,0,0," ",0
66,1530,0.10929,0.000134866,0.421846,0.118558,0.303288,2.63114e-09,0.5777,0,0,0,0,0.000453526,1.79196e-16,0.0339667,0,0.103861,1.59576e-16,2.63114e-09,0.439873,0,0," ",0
66,1600,0.0962746,0.00012424,0.429108,0.114526,0.314582,2.65629e-09,0.570591,0,0,0,0,0.000300467,-1.76267e-16,0.0293958,0,0.0997188,-2.77128e-16,2.65629e-09,0.441477,0,0," ",0
66,1670,0.0858214,0.000115596,0.43908,0.113529,0.325552,2.50113e-09,0.560914,0,0,0,0,5.42006e-06,-1.99282e-16,0.0303705,0,0.101369,-9.82916e-17,2.50113e-09,0.429174,0,0," ",0
66,1740,0.0661964,9.28993e-05,0.422575,0.122059,0.300516,2.51198e-09,0.577419,0,0,0,0,5.39945e-06,-2.03088e-16,0.0311825,0,0.0986143,-1.21355e-16,2.51198e-09,0.447623,0,0," ",0
66,1810,0.00381316,5.56663e-06,0.413599,0.116667,0.296932,2.33364e-09,0.586398,0,0,0,0,2.9832e-06,1.25013e-17,0.033659,0,0.109608,-5.9703e-16,2.33364e-09,0.443131,0,0," ",0
66,1880,2.03368e-05,3.08369e-08,0.448793,0.16,0.288793,2.23707e-09,0.551207,0,0,0,0,0,-4.47542e-16,0.0284441,0,0.0917146,-9.48299e-17,2.23707e-09,0.431048,0,0," ",0
66,1950,0.00551128,8.66795e-06,0.473537,0.164917,0.308621,2.20743e-09,0.526461,0,0,0,0,1.9204e-06,-2.27928e-16,0.0249881,0,0.0772204,-5.14773e-17,2.20743e-09,0.424252,0,0," ",0
66,2020,0.0193403,3.15097e-05,0.434791,0.112522,0.322269,2.18604e-09,0.565206,0,0,0,0,3.72756e-06,-1.75332e-16,0.0271571,0,0.0852177,4.43123e-17,2.18604e-09,0.452831,0,0," ",0
66,2090,0.0357928,6.03353e-05,0.44817,0.131045,0.317125,2.08966e-09,0.551657,0,0,0,0,0.000172669,-2.12688e-16,0.0258316,0,0.0807963,1.4872e-16,2.08966e-09,0.445029,0,0," ",0
66,2160,0.0334032,5.81931e-05,0.438718,0.118217,0.320501,2.07612e-09,0.561279,0,0,0,0,2.48997e-06,-2.21262e-16,0.02557,0,0.081465,-6.09787e-17,2.07612e-09,0.454244,0,0," ",0
66,2230,0.0305561,5.49581e-05,0.441596,0.107918,0.333678,2.00574e-09,0.5584,0,0,0,0,3.86676e-06,-4.07655e-16,0.0243719,0,0.0778119,3.12554e-17,2.00574e-09,0.456216,0,0," ",0
66,2300,0.02415,4.47996e-05,0.429056,0.113617,0.315439,1.95859e-09,0.57094,0,0,0,0,3.85579e-06,-2.06597e-16,0.0239581,0,0.0786984,-1.58804e-16,1.95859e-09,0.468283,0,0," ",0
66,2370,0.0157305,3.00691e-05,0.438554,0.117142,0.321412,1.92748e-09,0.561442,0,0,0,0,3.62316e-06,-4.31195e-16,0.024659,0,0.0777322,-1.03335e-16,1.92748e-09,0.459051,0,0," ",0
66,2440,0.012375,2.43536e-05,0.478558,0.147179,0.331379,1.70719e-09,0.521436,0,0,0,0,5.75505e-06,-4.3953e-16,0.0221374,0,0.0711648,-2.40022e-17,1.70719e-09,0.428134,0,0," ",0
77,300,0.000697689,8.44077e-08,0.297682,0.294,0.00368193,0,0.702318,0,0,0,0,0,-2.19609e-16,0.584874,0,0.117445,0,0,0,0,0," ",0
77,370,0.150504,4.49136e-05,0.262034,0.259575,0.00245953,0.132974,0.604987,0,0,0,0,4.09618e-06,-2.21935e-16,0.0108939,0,0.568656,0.0254375,0.132974,0,0,0," ",0
77,440,0.302109,0.000107213,0.276239,0.271485,0.00475472,0.695173,0.0285704,0,0,0,0,1.77825e-05,-6.6763e-16,0.00581332,0,0.00608374,0.0166733,0.695173,0,0,0," ",0
77,510,0.349237,0.000143654,0.258059,0.257625,0.00043372,0.735399,0.00633494,0,0,0,0,0.00020675,-3.26607e-18,0.00306943,0,0.00309112,0.000174388,0.735399,0,0,0," ",0
77,580,0.337202,0.000157742,0.266489,0.266155,0.000334234,0.727452,0.00605848,0,0,0,0,0,-1.00119e-20,0.00386187,0,0.00219661,-9.28189e-17,0.727452,0,0,0," ",0
77,650,0.314257,0.000164751,0.266605,0.266285,0.000319904,0.72527,0.0079859,0,0,0,0,0.000139355,1.097e-16,0.00632572,0,0.00166017,1.52471e-16,0.72527,0,0,0," ",0
77,720,0.246636,0.000143225,0.264556,0.264362,0.000194905,0.724334,0.010927,0,0,0,0,0.000182526,7.76819e-19,0.00980058,0,0.0011264,-9.72408e-17,0.724334,0,0,0," ",0
77,790,0.250258,0.000159457,0.282561,0.281309,0.00125157,0.702473,0.0149661,0,0,0,0,1.11141e-08,-1.69994e-18,0.0144633,0,0.000502832,9.83731e-17,0.702473,0,0,0," ",0
77,860,0.220609,0.000153021,0.268646,0.267613,0.00103351,0.712067,0.019277,0,0,0,0,1.00307e-05,2.16461e-16,0.0188944,0,0.000382534,-2.12334e-16,0.712067,0,0,0," ",0
77,930,0.104231,7.81824e-05,0.260375,0.257335,0.00303999,0.709613,0.0299718,0,0,0,0,4.00044e-05,3.34918e-18,0.0215482,0,0.00683939,1.03486e-18,0.709613,0.00158424,0,0," ",0
77,1000,0.164822,0.000132936,0.278495,0.272002,0.00649288,0.65731,0.0640906,0,0,0,0,0.000104878,-2.20972e-16,0.0225761,0,0.00127274,1.64265e-18,0.65731,0.0402417,0,0," ",0
77,1070,0.13722,0.000118422,0.374426,0.295055,0.0793706,0.405147,0.220088,0,0,0,0,0.000338784,9.64234e-18,0.0300037,0,0.0023825,5.59298e-17,0.405147,0.187702,0,0," ",0
77,1140,0.0470755,4.32842e-05,0.440862,0.2679,0.172961,0.120444,0.438648,0,0,0,0,4.66283e-05,-4.1958e-16,0.0437436,0,0.0101946,-5.15467e-17,0.120444,0.384709,0,0," ",0
77,1210,0.0986073,9.62329e-05,0.450656,0.290038,0.160618,0.00118399,0.547844,0,0,0,0,0.000316196,-2.26263e-16,0.0374412,0,0.146868,-5.4362e-17,0.00118399,0.363534,0,0," ",0
77,1280,0.0929498,9.59594e-05,0.498886,0.278786,0.220101,1.57278e-05,0.501084,0,0,0,0,1.35323e-05,-3.16144e-17,0.0449473,0,0.0141265,-5.72595e-17,1.57278e-05,0.44201,0,0," ",0
77,1350,0.00485219,5.28325e-06,0.527183,0.265,0.262183,3.16067e-07,0.472804,0,0,0,0,1.31053e-05,-2.19288e-17,0.0424425,0,0.0224812,1.42979e-16,3.16067e-07,0.40788,0,0," ",0
77,1420,0.00372069,4.26129e-06,0.515693,0.286929,0.228765,9.18272e-09,0.484299,0,0,0,0,8.12035e-06,-4.47751e-16,0.0311854,0,0.0791442,-6.49186e-17,9.18272e-09,0.373969,0,0," ",0
77,1490,0.0346177,4.1602e-05,0.533629,0.316318,0.217311,2.17358e-09,0.466361,0,0,0,0,1.01786e-05,-4.36754e-16,0.0292604,0,0.0853441,-2.32179e-16,2.17358e-09,0.351756,0,0," ",0
77,1560,0.0599045,7.53725e-05,0.538721,0.309463,0.229258,2.09228e-09,0.461271,0,0,0,0,7.87822e-06,2.04734e-16,0.0264073,0,0.0851736,6.39092e-17,2.09228e-09,0.34969,0,0," ",0
77,1630,0.0533359,7.01191e-05,0.534415,0.302971,0.231444,2.10503e-09,0.465577,0,0,0,0,8.36595e-06,9.5787e-17,0.0238902,0,0.0842561,2.44583e-17,2.10503e-09,0.357431,0,0," ",0
77,1700,0.0451702,6.19341e-05,0.533575,0.293414,0.240161,2.08054e-09,0.466416,0,0,0,0,8.66249e-06,2.06656e-16,0.0257902,0,0.0816764,1.45924e-16,2.08054e-09,0.358949,0,0," ",0
77,1770,0.029806,4.25507e-05,0.536647,0.292019,0.244628,1.996e-09,0.463346,0,0,0,0,6.77639e-06,-2.44236e-16,0.025764,0,0.082829,-2.74378e-17,1.996e-09,0.354753,0,0," ",0
77,1840,0,0,0.522899,0.28,0.242899,1.92728e-09,0.477101,0,0,0,0,0,9.30493e-18,0.026478,0,0.083749,-2.01838e-16,1.92728e-09,0.366874,0,0," ",0
77,1910,0,0,0.60933,0.39,0.21933,1.54406e-09,0.390661,0,0,0,0,8.56318e-06,2.44908e-16,0.0202417,0,0.0647469,8.66948e-17,1.54406e-09,0.305673,0,0," ",0
77,1980,0.0169332,2.70416e-05,0.548225,0.317154,0.231072,1.7405e-09,0.451768,0,0,0,0,6.19551e-06,2.14759e-16,0.0230933,0,0.0732411,-8.19148e-18,1.7405e-09,0.355434,0,0," ",0
77,2050,0.0157972,2.61194e-05,0.53111,0.27598,0.25513,1.76824e-09,0.468883,0,0,0,0,6.77816e-06,-1.47177e-17,0.0234702,0,0.0738311,4.27147e-17,1.76824e-09,0.371582,0,0," ",0
77,2120,0.0199307,3.4079e-05,0.531799,0.291776,0.240023,1.74881e-09,0.468193,0,0,0,0,8.31529e-06,-2.5508e-16,0.0220751,0,0.0702079,1.55414e-16,1.74881e-09,0.37591,0,0," ",0
77,2190,0.0174731,3.08633e-05,0.548008,0.294275,0.253733,1.61579e-09,0.451987,0,0,0,0,4.83827e-06,2.99412e-16,0.0207894,0,0.0666041,2.13963e-16,1.61579e-09,0.364593,0,0," ",0
77,2260,0.0151167,2.75546e-05,0.556171,0.297371,0.258799,1.57119e-09,0.443818,0,0,0,0,1.09974e-05,-3.61435e-17,0.0204531,0,0.0650542,-4.98416e-17,1.57119e-09,0.358311,0,0," ",0
77,2330,0.0127828,2.40222e-05,0.547898,0.310729,0.237169,1.54672e-09,0.452094,0,0,0,0,8.23904e-06,-7.6915e-18,0.0203721,0,0.065802,-3.15717e-17,1.54672e-09,0.36592,0,0," ",0
77,2400,0.00911052,1.76353e-05,0.522156,0.295847,0.226308,1.62124e-09,0.477838,0,0,0,0,6.29665e-06,-6.38457e-18,0.0195536,0,0.0627724,-2.23254e-17,1.62124e-09,0.395512,0,0," ",0
77,2470,0.00415597,8.27939e-06,0.542686,0.301607,0.241079,1.4973e-09,0.454099,0,0,0,0,0.00321458,-4.66313e-17,0.0194103,0,0.0613085,-1.07018e-16,1.4973e-09,0.373381,0,0," ",0
88,330,0.0142224,3.78544e-06,0.833743,0.831474,0.00226915,0,0.166257,0,0,0,0,0,0,0.0469031,0,0.119354,0,0,0,0,0," ",0
88,400,0.0346404,1.11756e-05,0.813905,0.811432,0.00247288,0.157654,0.0284294,0,0,0,0,1.16716e-05,-2.2659e-16,0.00217204,0,0.0134948,0.0127626,0.157654,0,0,0," ",0
88,470,0.0540593,2.04926e-05,0.814959,0.814959,0,0.181443,0.00355696,0,0,0,0,4.17817e-05,1.48552e-18,0.00113005,0,0.00105415,0.00137275,0.181443,0,0,0," ",0
88,540,0.0533788,2.32483e-05,0.808228,0.808228,0,0.190286,0.0014859,0,0,0,0,0,1.1239e-18,0.000751474,0,0.000734427,7.48511e-18,0.190286,0,0,0," ",0
88,610,0.0511976,2.51888e-05,0.805694,0.805694,0,0.192561,0.00174587,0,0,0,0,0,-2.22045e-16,0.00123888,0,0.000506992,-6.57773e-17,0.192561,0,0,0," ",0
88,680,0.0485103,2.66055e-05,0.807151,0.807151,0,0.190408,0.00244058,0,0,0,0,0,-4.44258e-16,0.00204927,0,0.00039131,-4.0316e-17,0.190408,0,0,0," ",0
88,750,0.043066,2.6051e-05,0.818574,0.818166,0.000408243,0.178123,0.00330278,0,0,0,0,1.36587e-13,-3.17669e-19,0.00304491,0,0.000257872,-1.81413e-17,0.178123,0,0,0," ",0
88,820,0.0304952,2.01685e-05,0.814629,0.814629,0,0.181091,0.00427968,0,0,0,0,1.46871e-07,-5.04506e-20,0.00425179,0,2.78866e-05,4.52144e-17,0.181091,0,0,0," ",0
88,890,0.0314497,2.25754e-05,0.820042,0.820042,0,0.174573,0.00533198,0,0,0,0,5.31882e-05,3.32392e-16,0.00491318,0,0.000418802,1.85001e-17,0.174573,0,0,0," ",0
88,960,0.0144205,1.11655e-05,0.801602,0.801598,4.1391e-06,0.189722,0.00847562,0,0,0,0,0.000200249,-2.21902e-16,0.00604781,0,0.000302689,5.53221e-18,0.189722,0.00212512,0,0," ",0
88,1030,0.0239445,1.98917e-05,0.806383,0.803044,0.00333834,0.163112,0.0302228,0,0,0,0,0.000282425,1.105e-16,0.0066894,0,0.000830455,7.05896e-17,0.163112,0.0227029,0,0," ",0
88,1100,0.017373,1.54133e-05,0.834312,0.813927,0.0203848,0.0790528,0.0864196,0,0,0,0,0.000215301,2.22724e-16,0.0101616,0,0.000525275,3.55677e-17,0.0790528,0.0757328,0,0," ",0
88,1170,0.0146281,1.3804e-05,0.840328,0.802674,0.0376539,0.00899343,0.150574,0,0,0,0,0.000104031,2.14257e-16,0.0127497,0,0.0138679,2.65317e-17,0.00899343,0.123957,0,0," ",0
88,1240,0.0160834,1.60853e-05,0.859716,0.818977,0.0407395,7.4564e-05,0.140137,0,0,0,0,7.20647e-05,1.12692e-16,0.0126546,0,0.012097,-2.24443e-17,7.4564e-05,0.115386,0,0," ",0
88,1310,0.0115762,1.22311e-05,0.861957,0.813394,0.0485624,1.4438e-06,0.137999,0,0,0,0,4.31462e-05,-2.29887e-16,0.013626,0,0.00311473,1.95144e-17,1.4438e-06,0.121258,0,0," ",0
88,1380,6.45641e-06,7.1862e-09,0.862606,0.845,0.0176058,1.78514e-08,0.137316,0,0,0,0,7.82629e-05,-2.19559e-16,0.00843947,0,0.0180796,-6.79984e-18,1.78514e-08,0.110797,0,0," ",0
88,1450,0.00227998,2.66642e-06,0.868849,0.820694,0.0481542,6.36682e-10,0.131115,0,0,0,0,3.6615e-05,-2.26582e-16,0.00833469,0,0.022252,1.35439e-17,6.36682e-10,0.100528,0,0," ",0
88,1520,0.00913145,1.11947e-05,0.865587,0.814491,0.0510954,5.93204e-10,0.134374,0,0,0,0,3.88179e-05,2.23447e-16,0.00840073,0,0.0250219,2.67214e-17,5.93204e-10,0.100952,0,0," ",0
88,1590,0.00870742,1.11665e-05,0.863653,0.807606,0.056047,6.16577e-10,0.136317,0,0,0,0,3.07403e-05,2.27663e-16,0.00757162,0,0.0250848,3.36551e-17,6.16577e-10,0.10366,0,0," ",0
88,1660,0.00771104,1.03241e-05,0.883416,0.835982,0.0474345,5.2035e-10,0.116549,0,0,0,0,3.42652e-05,3.52431e-18,0.00646146,0,0.0218551,2.83904e-17,5.2035e-10,0.0882328,0,0," ",0
88,1730,0.00599399,8.36356e-06,0.867649,0.815844,0.0518047,5.62797e-10,0.132328,0,0,0,0,2.29529e-05,1.56566e-18,0.00762963,0,0.0243723,-3.5311e-18,5.62797e-10,0.100326,0,0," ",0
88,1800,0.00109061,1.58333e-06,0.880046,0.819988,0.0600582,5.71483e-10,0.119947,0,0,0,0,6.82486e-06,-2.15031e-16,0.0055637,0,0.0171188,5.71578e-17,5.71483e-10,0.0972644,0,0," ",0
88,1870,0,0,0.897292,0.83,0.067292,3.85106e-10,0.102708,0,0,0,0,0,1.21591e-16,0.00557729,0,0.017361,-3.70343e-17,3.85106e-10,0.0797698,0,0," ",0
88,1940,0.000183222,2.86688e-07,0.862511,0.7935,0.0690111,5.14141e-10,0.137442,0,0,0,0,4.69149e-05,2.11345e-16,0.00689213,0,0.0214666,-4.08473e-17,5.14141e-10,0.109083,0,0," ",0
88,2010,0.00105396,1.70864e-06,0.85568,0.792225,0.0634545,5.55515e-10,0.144271,0,0,0,0,4.96305e-05,-2.61637e-18,0.00719057,0,0.0221434,-9.28871e-18,5.55515e-10,0.114937,0,0," ",0
88,2080,0.00292545,4.90778e-06,0.886025,0.84315,0.0428755,4.50391e-10,0.113947,0,0,0,0,2.72008e-05,2.27644e-16,0.00506512,0,0.0159594,2.08292e-17,4.50391e-10,0.0929228,0,0," ",0
88,2150,0.00298914,5.18339e-06,0.868765,0.814778,0.0539873,4.59957e-10,0.131204,0,0,0,0,3.09335e-05,2.34066e-16,0.00650213,0,0.0210209,3.66239e-17,4.59957e-10,0.103681,0,0," ",0
88,2220,0.00267243,4.78507e-06,0.87256,0.820797,0.0517629,4.74433e-10,0.127399,0,0,0,0,4.08558e-05,6.86128e-18,0.00549509,0,0.0170303,-1.00956e-17,4.74433e-10,0.104874,0,0," ",0
88,2290,0.00218122,4.02869e-06,0.872845,0.815704,0.057141,4.39953e-10,0.127129,0,0,0,0,2.57847e-05,5.1854e-19,0.00556035,0,0.0173555,-2.37447e-17,4.39953e-10,0.104213,0,0," ",0
88,2360,0.00171706,3.26833e-06,0.891995,0.830079,0.0619158,3.36513e-10,0.107985,0,0,0,0,2.04065e-05,3.28778e-16,0.00539799,0,0.0170131,2.09442e-17,3.36513e-10,0.0855735,0,0," ",0
88,2430,0.00120229,2.35637e-06,0.871541,0.806368,0.065173,4.15435e-10,0.128446,0,0,0,0,1.2994e-05,7.95291e-18,0.00567535,0,0.0173648,2.03227e-17,4.15435e-10,0.105406,0,0," ",0
88,2500,0.000160538,1.61851e-07,0.901059,0.835,0.0660588,3.13289e-10,0.0989146,0,0,0,0,2.66083e-05,1.23147e-16,0.0060198,0,0.0213624,-2.64583e-17,3.13289e-10,0.0715324,0,0," ",0